Folder: Sensori-Rivelatori-Dispositivi-Elettronici-Esercitazioni/esercitazione_a/res/acquisizioni-ceramica-mstolfi

Note: esercitazione_a/res/acquisizioni-ceramica-mstolfi/circuitoParametriConcentrati.txt
# Equivalent Circut
#   ----C0----  
# -|          |-
#   -L1-C1-R1-

Type, E
R1, 5.90515934940e+000
L1, 1.51991713431e-004
C1, 1.68606562873e-010
C0, 7.92059610000e-010

Note: README.md
# Esercitazioni – Sensori, Rivelatori e Dispositivi Elettronici

Repository delle esercitazioni svolte per il corso di **Sensori, Rivelatori e Dispositivi Elettronici** (a.a. **2024–2025**), Università degli Studi della Basilicata – Laurea Magistrale in Ingegneria Informatica e delle Tecnologie dell’Informazione.

## Introduzione

Questo repository raccoglie le **tre esercitazioni** previste come prerequisito per lo svolgimento del progetto del corso.

Le esercitazioni coprono tre ambiti distinti:

- **Esercitazione A**: simulazione numerica di trasduttori piezoelettrici (MATLAB);
- **Esercitazione B**: simulazione FEM di trasduttori piezoelettrici (Ansys);
- **Esercitazione C**: analisi di caratteristiche biometriche (MATLAB).

Il repository è organizzato in **tre cartelle principali**, una per ciascuna esercitazione. All’interno di ogni cartella sono presenti le sottocartelle relative ai singoli esercizi.

Per tutte e tre le esercitazioni, come riferimento teorico di base è stato utilizzato il materiale fornito dal docente. Eventuali risorse aggiuntive consultate per integrare, correggere o completare gli esercizi (garantendo coerenza e significato fisico dei risultati) sono raccolte, per ciascuna esercitazione, nella relativa cartella `./res`.

## Note sul codice

Il codice è stato sviluppato privilegiando **leggibilità** e **modularità**. I risultati riportati sono stati verificati per quanto possibile dal punto di vista fisico e discussi con il docente. Le parti più articolate del codice sono commentate in maniera puntuale.

Il contenuto nelle cartelle `./external` è materiale fornito dal docente e/o sviluppato da terze parti: per questo motivo **non è garantita** né la correttezza né la qualità del codice in tali directory.

## Documentazione

È **fortemente consigliata** la lettura della relazione presente nella cartella `./doc` (nella root del repository). La relazione include:
- i concetti teorici necessari a inquadrare le esercitazioni;
- una discussione motivata delle principali scelte implementative adottate.

## Contributi

Il lavoro è stato svolto ponendo la massima attenzione sia sulla correttezza teorica che implementativa. Nonostante ciò, è possibile che siano presenti errori teorici o implementativi: in tal caso, segnalazioni e contributi (ad esempio tramite pull request) sono benvenuti.

## Galleria

**Esercitazione A — Simulazione numerica (MATLAB)**
![Esercitazione A — Simulazione numerica (MATLAB)](./doc/screenshots/screenshot_esercitazione_a_gui_langevin_concentratore.png)

**Esercitazione B — Simulazione FEM (Ansys)**
![Esercitazione B — Simulazione FEM (Ansys)](./doc/screenshots/screenshot_esercitazione_b_langevin_concentratore.png)

**Esercitazione C — Analisi biometrica (MATLAB)**
![Esercitazione C — Analisi biometrica (MATLAB)](./doc/screenshots/screenshot_esercitazione_c_matching_3d.png)


## License

Questo progetto è distribuito con licenza **MIT**. Per i dettagli, vedere [LICENSE.txt](./LICENSE.txt).

File: MODULOFASEMODOTHICKNES.CSV
!Keysight Technologies,E4990A,MY54403861,A.04.00
!Date: Wed Mar 26 11:24:29 2025

BEGIN CH1_DATA
Frequency(Hz), |Z|(Ohm)-data, theta-z(deg)-data
950000, 60.8781, -80.8688
950675, 59.7585, -80.998
951350, 58.6253, -81.0223
952025, 57.5528, -81.0465
952700, 56.4871, -80.9826
953375, 55.5182, -80.8568
954050, 54.6322, -80.7458
954725, 53.7469, -80.6077
955400, 52.9133, -80.4025
956075, 52.1681, -80.1486
956750, 51.5265, -79.865
957425, 51.0199, -79.6068
958100, 50.6184, -79.4559
958775, 50.2937, -79.4213
959450, 50.0083, -79.6149
960125, 49.5907, -80.0285
960800, 49.0083, -80.4449
961475, 48.3789, -80.8988
962150, 47.6337, -81.3683
962825, 46.8041, -81.7932
963500, 45.9285, -82.1639
964175, 45.0166, -82.4902
964850, 44.079, -82.7653
965525, 43.1238, -82.9887
966200, 42.1525, -83.1448
966875, 41.2051, -83.2072
967550, 40.3281, -83.2749
968225, 39.4278, -83.3985
968900, 38.4972, -83.4851
969575, 37.5676, -83.5336
970250, 36.6405, -83.5589
970925, 35.7123, -83.5625
971600, 34.7844, -83.5378
972275, 33.8525, -83.4974
972950, 32.9189, -83.4187
973625, 31.9938, -83.308
974300, 31.0749, -83.1752
974975, 30.1586, -83.03
975650, 29.2409, -82.8663
976325, 28.323, -82.6831
977000, 27.3993, -82.4814
977675, 26.4686, -82.2567
978350, 25.5319, -81.9942
979025, 24.5911, -81.6918
979700, 23.6446, -81.3502
980375, 22.6923, -80.9603
981050, 21.7363, -80.5124
981725, 20.7746, -80.0028
982400, 19.8093, -79.4082
983075, 18.8456, -78.7359
983750, 17.8782, -77.9821
984425, 16.9029, -77.1179
985100, 15.9245, -76.1272
985775, 14.9389, -74.9673
986450, 13.9515, -73.6
987125, 12.9652, -71.985
987800, 11.9791, -70.0537
988475, 11.0013, -67.7047
989150, 10.0346, -64.8612
989825, 9.08066, -61.3109
990500, 8.15851, -56.7865
991175, 7.29464, -50.9541
991850, 6.52543, -43.3902
992525, 5.91466, -33.8157
993200, 5.5014, -22.3026
993875, 5.35551, -9.16389
994550, 5.52864, 4.18505
995225, 6.01246, 16.2057
995900, 6.754, 25.9889
996575, 7.65665, 33.4865
997250, 8.67703, 39.6431
997925, 9.88395, 44.5468
998600, 11.1653, 47.8414
999275, 12.532, 50.4921
999950, 13.9538, 52.3581
1.00062e+06, 15.439, 53.7839
1.0013e+06, 16.9909, 54.6578
1.00198e+06, 18.5856, 55.0865
1.00265e+06, 20.2011, 55.0647
1.00332e+06, 21.7865, 54.708
1.004e+06, 23.3676, 54.0796
1.00468e+06, 24.8627, 53.0293
1.00535e+06, 26.1807, 51.8558
1.00602e+06, 27.4032, 50.625
1.0067e+06, 28.4895, 49.1282
1.00738e+06, 29.291, 47.4099
1.00805e+06, 29.7163, 45.6538
1.00872e+06, 29.7015, 44.0508
1.0094e+06, 29.1833, 42.9225
1.01008e+06, 28.2663, 42.8206
1.01075e+06, 27.23, 44.12
1.01142e+06, 26.4689, 46.7038
1.0121e+06, 26.0536, 50.3445
1.01278e+06, 26.1703, 54.5423
1.01345e+06, 26.8473, 58.8378
1.01412e+06, 28.0756, 62.7042
1.0148e+06, 29.7156, 65.5219
1.01548e+06, 31.1605, 67.635
1.01615e+06, 32.8038, 70.0331
1.01682e+06, 34.5946, 71.8929
1.0175e+06, 36.5927, 73.734
1.01818e+06, 38.7699, 75.136
1.01885e+06, 41.0457, 76.1937
1.01952e+06, 43.3281, 76.9936
1.0202e+06, 45.5876, 77.6855
1.02088e+06, 47.869, 78.3581
1.02155e+06, 50.2374, 79.0319
1.02222e+06, 52.7391, 79.672
1.0229e+06, 55.413, 80.2367
1.02358e+06, 58.2246, 80.6808
1.02425e+06, 61.1339, 81.0126
1.02492e+06, 64.1302, 81.2851
1.0256e+06, 67.2523, 81.5071
1.02628e+06, 70.4906, 81.6707
1.02695e+06, 73.8766, 81.7971
1.02762e+06, 77.4107, 81.8697
1.0283e+06, 81.1243, 81.896
1.02898e+06, 85.0104, 81.8618
1.02965e+06, 89.083, 81.7685
1.03032e+06, 93.3386, 81.6213
1.031e+06, 97.7839, 81.4219
1.03168e+06, 102.43, 81.1861
1.03235e+06, 107.317, 80.9243
1.03302e+06, 112.498, 80.6508
1.0337e+06, 118.131, 80.3213
1.03438e+06, 124.144, 79.8983
1.03505e+06, 130.598, 79.3792
1.03572e+06, 137.47, 78.7515
1.0364e+06, 144.77, 78.0241
1.03708e+06, 152.568, 77.2237
1.03775e+06, 161.012, 76.3412
1.03842e+06, 170.239, 75.3414
1.0391e+06, 180.366, 74.1992
1.03978e+06, 191.613, 72.8856
1.04045e+06, 204.172, 71.3327
1.04112e+06, 218.257, 69.4741
1.0418e+06, 234.101, 67.2264
1.04248e+06, 251.897, 64.4583
1.04315e+06, 271.773, 61.0397
1.04382e+06, 293.6, 56.7445
1.0445e+06, 316.283, 51.3527
1.04518e+06, 337.669, 44.6759
1.04585e+06, 353.93, 36.6663
1.04652e+06, 359.925, 27.5614
1.0472e+06, 352.299, 18.0419
1.04788e+06, 331.004, 8.94323
1.04855e+06, 300.416, 1.09146
1.04922e+06, 266.445, -5.02364
1.0499e+06, 233.737, -9.43056
1.05058e+06, 204.154, -12.2746
1.05125e+06, 178.3, -13.7709
1.05192e+06, 155.753, -14.0147
1.0526e+06, 136.798, -12.9834
1.05328e+06, 120.808, -10.8631
1.05395e+06, 107.481, -7.58831
1.05462e+06, 96.7705, -3.0536
1.0553e+06, 88.8141, 2.68228
1.05598e+06, 84.0814, 9.0065
1.05665e+06, 81.4957, 15.0888
1.05732e+06, 80.3357, 20.7499
1.058e+06, 79.8844, 26.0121
1.05868e+06, 80.0201, 31.1164
1.05935e+06, 80.8365, 36.1015
1.06002e+06, 82.2957, 40.9733
1.0607e+06, 84.5934, 45.7561
1.06138e+06, 88.0356, 50.3061
1.06205e+06, 92.3833, 54.0202
1.06272e+06, 96.8099, 57.5128
1.0634e+06, 102.053, 60.7271
1.06408e+06, 107.996, 63.5181
1.06475e+06, 114.405, 65.9383
1.06542e+06, 121.398, 67.9836
1.0661e+06, 128.694, 69.7227
1.06678e+06, 136.337, 71.2577
1.06745e+06, 144.417, 72.5635
1.06812e+06, 152.927, 73.6544
1.0688e+06, 161.715, 74.5385
1.06948e+06, 170.708, 75.303
1.07015e+06, 180.167, 75.954
1.07082e+06, 189.789, 76.4884
1.0715e+06, 199.813, 77.0044
1.07218e+06, 210.484, 77.4435
1.07285e+06, 221.645, 77.7834
1.07352e+06, 233.235, 78.0538
1.0742e+06, 245.48, 78.2668
1.07488e+06, 258.2, 78.3817
1.07555e+06, 271.263, 78.4772
1.07622e+06, 285.091, 78.5955
1.0769e+06, 299.906, 78.6738
1.07758e+06, 315.573, 78.6989
1.07825e+06, 332.237, 78.7003
1.07892e+06, 350.039, 78.6738
1.0796e+06, 369.112, 78.5866
1.08028e+06, 389.448, 78.4712
1.08095e+06, 411.312, 78.3167
1.08162e+06, 434.932, 78.1284
1.0823e+06, 460.498, 77.8899
1.08298e+06, 488.227, 77.6054
1.08365e+06, 518.536, 77.2667
1.08432e+06, 551.629, 76.8659
1.085e+06, 587.919, 76.3948
1.08568e+06, 627.879, 75.8762
1.08635e+06, 672.321, 75.2788
1.08702e+06, 722.187, 74.6001
1.0877e+06, 778.196, 73.7856
1.08838e+06, 841.193, 72.8485
1.08905e+06, 912.885, 71.7733
1.08972e+06, 995.199, 70.5292
1.0904e+06, 1090.58, 69.0783
1.09108e+06, 1202.44, 67.3765
1.09175e+06, 1335.4, 65.3449
1.09242e+06, 1495.9, 62.8751
1.0931e+06, 1692.45, 59.7986
1.09378e+06, 1935.89, 55.8554
1.09445e+06, 2239.34, 50.6898
1.09512e+06, 2614.94, 43.7464
1.0958e+06, 3056.26, 34.3152
1.09648e+06, 3507.81, 21.7761
1.09715e+06, 3830.33, 6.21365
1.09782e+06, 3857.96, -10.7135
1.0985e+06, 3582.67, -26.2943
1.09918e+06, 3165.39, -38.8256
1.09985e+06, 2746.17, -48.2564
1.10052e+06, 2385.03, -55.2084
1.1012e+06, 2089.75, -60.3835
1.10188e+06, 1851.3, -64.3099
1.10255e+06, 1658.01, -67.3471
1.10322e+06, 1499.92, -69.7368
1.1039e+06, 1369.4, -71.6576
1.10458e+06, 1260.1, -73.2507
1.10525e+06, 1166.97, -74.5839
1.10592e+06, 1086.95, -75.7052
1.1066e+06, 1017.54, -76.662
1.10728e+06, 956.718, -77.481
1.10795e+06, 903.112, -78.1873
1.10862e+06, 855.462, -78.8017
1.1093e+06, 812.902, -79.3408
1.10998e+06, 774.569, -79.8185
1.11065e+06, 739.841, -80.2384
1.11132e+06, 708.295, -80.6094
1.112e+06, 679.52, -80.9418
1.11268e+06, 653.062, -81.2498
1.11335e+06, 628.553, -81.5241
1.11402e+06, 605.81, -81.764
1.1147e+06, 584.677, -81.9636
1.11538e+06, 565.017, -82.1541
1.11605e+06, 546.635, -82.315
1.11672e+06, 529.328, -82.4525
1.1174e+06, 513.045, -82.5655
1.11808e+06, 497.713, -82.6559
1.11875e+06, 483.247, -82.7239
1.11942e+06, 469.48, -82.7745
1.1201e+06, 456.433, -82.8077
1.12078e+06, 444.016, -82.8225
1.12145e+06, 432.145, -82.8143
1.12212e+06, 420.76, -82.7911
1.1228e+06, 409.892, -82.7494
1.12348e+06, 399.361, -82.683
1.12415e+06, 389.236, -82.6009
1.12482e+06, 379.399, -82.5013
1.1255e+06, 369.762, -82.3689
1.12618e+06, 360.438, -82.1979
1.12685e+06, 351.345, -81.9957
1.12752e+06, 342.486, -81.7506
1.1282e+06, 333.923, -81.4902
1.12888e+06, 325.197, -81.1949
1.12955e+06, 316.526, -80.8214
1.13e+06, 310.786, -80.5241
END